PIS1.started,PIS1.stopped,mouse_4.x,mouse_4.y,mouse_4.leftButton,mouse_4.midButton,mouse_4.rightButton,mouse_4.time,,date,expName,psychopyVersion,OS,frameRate,PIS2.started,PIS2.stopped,mouse_13.x,mouse_13.y,mouse_13.leftButton,mouse_13.midButton,mouse_13.rightButton,mouse_13.time,PIS3.started,PIS3.stopped,mouse_19.x,mouse_19.y,mouse_19.leftButton,mouse_19.midButton,mouse_19.rightButton,mouse_19.time,Consent.started,Consent.stopped,key_resp.keys,key_resp.rt,key_resp.duration,Instructions_2.started,Instructions_2.stopped,mouse_12.x,mouse_12.y,mouse_12.leftButton,mouse_12.midButton,mouse_12.rightButton,mouse_12.time,Instruction_Animation.started,Instruction_Animation.stopped,mouse_11.x,mouse_11.y,mouse_11.leftButton,mouse_11.midButton,mouse_11.rightButton,mouse_11.time,Line0.started,Line0.stopped,Demo c0 x position:,Demo c0 y position:,mouse_15.x,mouse_15.y,mouse_15.leftButton,mouse_15.midButton,mouse_15.rightButton,mouse_15.time,Halo_01.started,Halo_01.stopped,Demo c1 x position:,Demo c1 y position:,mouse_16.x,mouse_16.y,mouse_16.leftButton,mouse_16.midButton,mouse_16.rightButton,mouse_16.time,Halo_02.started,Halo_02.stopped,Demo c2 x position:,Demo c2 y position:,mouse_17.x,mouse_17.y,mouse_17.leftButton,mouse_17.midButton,mouse_17.rightButton,mouse_17.time,Halo_03.started,Halo_03.stopped,Demo c3 x position:,Demo c3 y position:,mouse_18.x,mouse_18.y,mouse_18.leftButton,mouse_18.midButton,mouse_18.rightButton,mouse_18.time,Instructions2.started,Instructions2.stopped,mouse_10.x,mouse_10.y,mouse_10.leftButton,mouse_10.midButton,mouse_10.rightButton,mouse_10.time,Rotation.started,Rotation.stopped,mouse.x,mouse.y,mouse.leftButton,mouse.midButton,mouse.rightButton,mouse.time,Line.started,Line.stopped,Practice c0 x position:,Practice c0 y position:,mouse_7.x,mouse_7.y,mouse_7.leftButton,mouse_7.midButton,mouse_7.rightButton,mouse_7.time,Halo_1.started,Halo_1.stopped,Practice c1 x position:,Practice c1 y position:,mouse_2.x,mouse_2.y,mouse_2.leftButton,mouse_2.midButton,mouse_2.rightButton,mouse_2.time,Halo_2.started,Halo_2.stopped,Practice c2 x position:,Practice c2 y position:,mouse_3.x,mouse_3.y,mouse_3.leftButton,mouse_3.midButton,mouse_3.rightButton,mouse_3.time,Halo_3.started,Halo_3.stopped,Practice c3 x position:,Practice c3 y position:,mouse_6.x,mouse_6.y,mouse_6.leftButton,mouse_6.midButton,mouse_6.rightButton,mouse_6.time,Pract.thisRepN,Pract.thisTrialN,Pract.thisN,Pract.thisIndex,Pract.ran,v,l,s,q,c,Start.started,Start.stopped,mouse_9.x,mouse_9.y,mouse_9.leftButton,mouse_9.midButton,mouse_9.rightButton,mouse_9.time,Rotation c0 x position:,Rotation c0 y position:,Rotation c1 x position:,Rotation c1 y position:,Rotation c2 x position:,Rotation c2 y position:,Rotation c3 x position:,Rotation c3 y position:,Mask.started,Mask.stopped,mouse_5.x,mouse_5.y,mouse_5.leftButton,mouse_5.midButton,mouse_5.rightButton,mouse_5.time,Mask c0 x position:,Mask c0 y position:,Mask c1 x position:,Mask c1 y position:,Mask c2 x position:,Mask c2 y position:,Mask c3 x position:,Mask c3 y position:,trials.thisRepN,trials.thisTrialN,trials.thisN,trials.thisIndex,trials.ran,trials_2.thisRepN,trials_2.thisTrialN,trials_2.thisN,trials_2.thisIndex,trials_2.ran,Debrief.started,Debrief.stopped,mouse_14.x,mouse_14.y,mouse_14.leftButton,mouse_14.midButton,mouse_14.rightButton,mouse_14.time
1E-04,0.5553,-0.100355496,-0.189131266,1,0,0,0.5515,,2024-03-13_19h48.15.002,circleBounceNew,2023.2.3,MacIntel,59.52380952,,,,,,,,,,,,,,,,,,,,,,,,,,,,,,,,,,,,,,,,,,,,,,,,,,,,,,,,,,,,,,,,,,,,,,,,,,,,,,,,,,,,,,,,,,,,,,,,,,,,,,,,,,,,,,,,,,,,,,,,,,,,,,,,,,,,,,,,,,,,,,,,,,,,,,,,,,,,,,,,,,,,,,,,,,,,,,,,,,,,,,,,,,,,,,,,,
,,,,,,,,,2024-03-13_19h48.15.002,circleBounceNew,2023.2.3,MacIntel,59.52380952,0.5555,0.7878,-0.100355496,-0.189131266,1,0,0,0.2274,,,,,,,,,,,,,,,,,,,,,,,,,,,,,,,,,,,,,,,,,,,,,,,,,,,,,,,,,,,,,,,,,,,,,,,,,,,,,,,,,,,,,,,,,,,,,,,,,,,,,,,,,,,,,,,,,,,,,,,,,,,,,,,,,,,,,,,,,,,,,,,,,,,,,,,,,,,,,,,,,,,,,,,,,,,,,,,,,,,,,,,,,
,,,,,,,,,2024-03-13_19h48.15.002,circleBounceNew,2023.2.3,MacIntel,59.52380952,,,,,,,,,0.788,0.9892,-0.100355496,-0.189131266,1,0,0,0.1973,,,,,,,,,,,,,,,,,,,,,,,,,,,,,,,,,,,,,,,,,,,,,,,,,,,,,,,,,,,,,,,,,,,,,,,,,,,,,,,,,,,,,,,,,,,,,,,,,,,,,,,,,,,,,,,,,,,,,,,,,,,,,,,,,,,,,,,,,,,,,,,,,,,,,,,,,,,,,,,,,,,,,,,,,,,,,,,,,
,,,,,,,,,2024-03-13_19h48.15.002,circleBounceNew,2023.2.3,MacIntel,59.52380952,,,,,,,,,,,,,,,,,0.9893,1.8552,y,0.8432,,,,,,,,,,,,,,,,,,,,,,,,,,,,,,,,,,,,,,,,,,,,,,,,,,,,,,,,,,,,,,,,,,,,,,,,,,,,,,,,,,,,,,,,,,,,,,,,,,,,,,,,,,,,,,,,,,,,,,,,,,,,,,,,,,,,,,,,,,,,,,,,,,,,,,,,,,,,,,,,,,,,,,,,,,,,,
,,,,,,,,,2024-03-13_19h48.15.002,circleBounceNew,2023.2.3,MacIntel,59.52380952,,,,,,,,,,,,,,,,,,,,,,1.8553,3.1053,-0.100355496,-0.189131266,1,0,0,1.2451,,,,,,,,,,,,,,,,,,,,,,,,,,,,,,,,,,,,,,,,,,,,,,,,,,,,,,,,,,,,,,,,,,,,,,,,,,,,,,,,,,,,,,,,,,,,,,,,,,,,,,,,,,,,,,,,,,,,,,,,,,,,,,,,,,,,,,,,,,,,,,,,,,,,,,,,,,,,,,,,,,,,
,,,,,,,,,2024-03-13_19h48.15.002,circleBounceNew,2023.2.3,MacIntel,59.52380952,,,,,,,,,,,,,,,,,,,,,,,,,,,,,,3.1054,4.6058,[],[],[],[],[],[],,,,,,,,,,,,,,,,,,,,,,,,,,,,,,,,,,,,,,,,,,,,,,,,,,,,,,,,,,,,,,,,,,,,,,,,,,,,,,,,,,,,,,,,,,,,,,,,,,,,,,,,,,,,,,,,,,,,,,,,,,,,,,,,,,,,,,,,,,,,,,,,,,,,,,,,,,,,
,,,,,,,,,2024-03-13_19h48.15.002,circleBounceNew,2023.2.3,MacIntel,59.52380952,,,,,,,,,,,,,,,,,,,,,,,,,,,,,,,,,,,,,,4.6061,6.7217,-0.017184989,0.035762544,-0.010366347,0.038425327,1,0,0,2.1122,,,,,,,,,,,,,,,,,,,,,,,,,,,,,,,,,,,,,,,,,,,,,,,,,,,,,,,,,,,,,,,,,,,,,,,,,,,,,,,,,,,,,,,,,,,,,,,,,,,,,,,,,,,,,,,,,,,,,,,,,,,,,,,,,,,,,,,,,,,,,,,,,,
,,,,,,,,,2024-03-13_19h48.15.002,circleBounceNew,2023.2.3,MacIntel,59.52380952,,,,,,,,,,,,,,,,,,,,,,,,,,,,,,,,,,,,,,,,,,,,,,,,6.7218,8.7559,-0.260627537,-0.031297558,-0.195135227,-0.023432888,1,0,0,2.0324,,,,,,,,,,,,,,,,,,,,,,,,,,,,,,,,,,,,,,,,,,,,,,,,,,,,,,,,,,,,,,,,,,,,,,,,,,,,,,,,,,,,,,,,,,,,,,,,,,,,,,,,,,,,,,,,,,,,,,,,,,,,,,,,,,,,,,,,
,,,,,,,,,2024-03-13_19h48.15.002,circleBounceNew,2023.2.3,MacIntel,59.52380952,,,,,,,,,,,,,,,,,,,,,,,,,,,,,,,,,,,,,,,,,,,,,,,,,,,,,,,,,,8.756,10.6552,-0.357201638,-0.082310729,-0.261471354,-0.060251397,1,0,0,1.8974,,,,,,,,,,,,,,,,,,,,,,,,,,,,,,,,,,,,,,,,,,,,,,,,,,,,,,,,,,,,,,,,,,,,,,,,,,,,,,,,,,,,,,,,,,,,,,,,,,,,,,,,,,,,,,,,,,,,,,,,,,,,,,
,,,,,,,,,2024-03-13_19h48.15.002,circleBounceNew,2023.2.3,MacIntel,59.52380952,,,,,,,,,,,,,,,,,,,,,,,,,,,,,,,,,,,,,,,,,,,,,,,,,,,,,,,,,,,,,,,,,,,,10.6554,13.6045,-0.445316227,-0.146355802,-0.280926921,-0.092328288,1,0,0,2.9465,,,,,,,,,,,,,,,,,,,,,,,,,,,,,,,,,,,,,,,,,,,,,,,,,,,,,,,,,,,,,,,,,,,,,,,,,,,,,,,,,,,,,,,,,,,,,,,,,,,,,,,,,,,,,,,,,,,,
,,,,,,,,,2024-03-13_19h48.15.002,circleBounceNew,2023.2.3,MacIntel,59.52380952,,,,,,,,,,,,,,,,,,,,,,,,,,,,,,,,,,,,,,,,,,,,,,,,,,,,,,,,,,,,,,,,,,,,,,,,,,,,,,13.6048,72.3712,0.17083469,-0.266233588,1,0,0,58.7635,,,,,,,,,,,,,,,,,,,,,,,,,,,,,,,,,,,,,,,,,,,,,,,,,,,,,,,,,,,,,,,,,,,,,,,,,,,,,,,,,,,,,,,,,,,,,,,,,,,,,,,,,,,,
,,,,,,,,,2024-03-13_19h48.15.002,circleBounceNew,2023.2.3,MacIntel,59.52380952,,,,,,,,,,,,,,,,,,,,,,,,,,,,,,,,,,,,,,,,,,,,,,,,,,,,,,,,,,,,,,,,,,,,,,,,,,,,,,,,,,,,,,72.3908,74.2547,[],[],[],[],[],[],74.255,75.6377,0.031338144,-0.008016736,0.041402317,0.023176439,1,0,0,1.3798,75.6379,76.7038,0.172171696,0.19814933,0.102255317,0.117683818,1,0,0,1.0643,76.7041,78.5031,0.256910499,0.261467133,0.131429443,0.133760512,1,0,0,1.7977,78.5033,85.3382,0.344772731,0.317582,0.346570231,0.319237739,1,0,0,6.8327,0,0,0,0,1,99,0,4,3,6,,,,,,,,,,,,,,,,,,,,,,,,,,,,,,,,,,,,,,,,,,,,,,,,,,
,,,,,,,,,2024-03-13_19h48.15.002,circleBounceNew,2023.2.3,MacIntel,59.52380952,,,,,,,,,,,,,,,,,,,,,,,,,,,,,,,,,,,,,,,,,,,,,,,,,,,,,,,,,,,,,,,,,,,,,,,,,,,,,,,,,,,,,,85.3491,87.2046,[],[],[],[],[],[],87.2047,88.9205,0.012042816,0.018548413,0.066364,-0.013551432,1,0,0,1.7145,88.9206,89.9386,0.172031426,-0.198271124,0.109726698,-0.126463148,1,0,0,1.0163,89.9386,90.6208,0.19937019,-0.307602981,0.112604438,-0.173734402,1,0,0,0.6804,90.6209,91.2539,0.205953142,-0.42108178,0.112604438,-0.230225559,1,0,0,0.6316,0,1,1,1,1,3,0,2,3,6,,,,,,,,,,,,,,,,,,,,,,,,,,,,,,,,,,,,,,,,,,,,,,,,,,
,,,,,,,,,2024-03-13_19h48.15.002,circleBounceNew,2023.2.3,MacIntel,59.52380952,,,,,,,,,,,,,,,,,,,,,,,,,,,,,,,,,,,,,,,,,,,,,,,,,,,,,,,,,,,,,,,,,,,,,,,,,,,,,,,,,,,,,,91.2547,93.1367,[],[],[],[],[],[],93.137,93.8864,-0.004352463,-0.00469657,0.012929552,-0.02032491,1,0,0,0.7473,93.8865,94.5866,-0.100571919,0.242469666,-0.050422024,0.121562873,1,0,0,0.6985,94.5866,95.1539,-0.11504966,0.348039713,-0.046451077,0.140520359,1,0,0,0.5654,95.1543,95.7531,-0.110231921,0.455604528,-0.03767117,0.155700412,1,0,0,0.5973,0,2,2,2,1,99,0,5,3,15,,,,,,,,,,,,,,,,,,,,,,,,,,,,,,,,,,,,,,,,,,,,,,,,,,
,,,,,,,,,2024-03-13_19h48.15.002,circleBounceNew,2023.2.3,MacIntel,59.52380952,,,,,,,,,,,,,,,,,,,,,,,,,,,,,,,,,,,,,,,,,,,,,,,,,,,,,,,,,,,,,,,,,,,,,,,,,,,,,,,,,,,,,,,,,,,,,,,,,,,,,,,,,,,,,,,,,,,,,,,,,,,,,,,,,,,,,,,,,,,,,,,,95.7535,96.3529,-0.03767117,0.155700412,1,0,0,0.5989,,,,,,,,,,,,,,,,,,,,,,,,,,,,,,,,,,,,,,,,,,
,,,,,,,,,2024-03-13_19h48.15.002,circleBounceNew,2023.2.3,MacIntel,59.52380952,,,,,,,,,,,,,,,,,,,,,,,,,,,,,,,,,,,,,,,,,,,,,,,,,,,,,,,,,,,,,,,,,,,,,,,,,,,,,,,,,,,,,,96.3609,98.2207,[],[],[],[],[],[],102.5066,103.187,,,-0.007118462,-0.033912557,1,0,0,0.6792,103.187,104.0201,,,-0.080464817,0.19145752,1,0,0,0.8315,104.0202,104.6365,,,-0.07411872,0.216868354,1,0,0,0.6152,104.6366,105.2204,,,-0.064630466,0.232269135,1,0,0,0.5817,,,,,,3,0,2,3,6,,,,,,,,,-0.014452622,-0.018516632,0.050081121,-0.257678349,0.033150787,-0.365060395,-0.002243854,-0.468744629,100.7707,102.5064,[],[],[],[],[],[],-0.017548096,-0.028336979,-0.101705103,0.241996533,-0.118547113,0.34686402,-0.125658876,0.45159319,0,0,0,1,1,,,,,,,,,,,,,
,,,,,,,,,2024-03-13_19h48.15.002,circleBounceNew,2023.2.3,MacIntel,59.52380952,,,,,,,,,,,,,,,,,,,,,,,,,,,,,,,,,,,,,,,,,,,,,,,,,,,,,,,,,,,,,,,,,,,,,,,,,,,,,,,,,,,,,,105.2209,107.0861,[],[],[],[],[],[],111.7388,113.5026,,,0.02449802,-0.001225518,1,0,0,1.7623,113.5027,114.1694,,,0.12183804,0.151188015,1,0,0,0.6649,114.1695,114.6861,,,0.149017402,0.152092353,1,0,0,0.5149,114.6861,115.1195,,,0.181548055,0.152092353,1,0,0,0.4319,,,,,,99,0,1,2,6,,,,,,,,,0.009287642,-0.000274048,-0.062159596,-0.255034183,-0.113065443,-0.348689363,-0.18567401,-0.430408788,110.0205,111.7387,[],[],[],[],[],[],0.024347527,-0.002290407,0.164713104,0.204391398,0.256538499,0.261832131,0.359321554,0.301022562,0,1,1,4,1,,,,,,,,,,,,,
,,,,,,,,,2024-03-13_19h48.15.002,circleBounceNew,2023.2.3,MacIntel,59.52380952,,,,,,,,,,,,,,,,,,,,,,,,,,,,,,,,,,,,,,,,,,,,,,,,,,,,,,,,,,,,,,,,,,,,,,,,,,,,,,,,,,,,,,115.1201,116.9868,[],[],[],[],[],[],121.2416,121.8862,,,-0.02020969,0.011185981,1,0,0,0.6424,121.8862,122.6694,,,-0.080879991,-0.123417426,1,0,0,0.7815,122.6695,123.2195,,,-0.104419691,-0.131268717,1,0,0,0.5479,123.2196,123.6697,,,-0.133317871,-0.133533393,1,0,0,0.448,,,,,,99,0,4,3,6,,,,,,,,,-0.006278973,0.001120805,0.124940778,0.230859377,0.198382418,0.308240949,0.287284538,0.370397296,119.5026,121.2415,[],[],[],[],[],[],-0.021904889,0.005167538,-0.143882156,-0.219554492,-0.22819566,-0.286870715,-0.331188496,-0.331723896,0,2,2,0,1,,,,,,,,,,,,,
,,,,,,,,,2024-03-13_19h48.15.002,circleBounceNew,2023.2.3,MacIntel,59.52380952,,,,,,,,,,,,,,,,,,,,,,,,,,,,,,,,,,,,,,,,,,,,,,,,,,,,,,,,,,,,,,,,,,,,,,,,,,,,,,,,,,,,,,123.6702,125.5361,[],[],[],[],[],[],130.0417,130.8864,,,0.011392754,-0.023934665,1,0,0,0.8437,130.8865,131.6532,,,0.087757568,0.125904202,1,0,0,0.7649,131.6533,132.2366,,,0.102026842,0.129918823,1,0,0,0.5818,132.2366,132.8027,,,0.123138631,0.129918823,1,0,0,0.5627,,,,,,99,0,1,4,6,,,,,,,,,-0.036159253,0.004235339,-0.15695476,-0.210407826,-0.245056017,-0.272608905,-0.333984228,-0.328908951,128.2874,130.0415,[],[],[],[],[],[],0.013680928,-0.00100502,0.150102659,0.21534958,0.226398541,0.288291115,0.322459843,0.34021495,0,3,3,3,1,,,,,,,,,,,,,
,,,,,,,,,2024-03-13_19h48.15.002,circleBounceNew,2023.2.3,MacIntel,59.52380952,,,,,,,,,,,,,,,,,,,,,,,,,,,,,,,,,,,,,,,,,,,,,,,,,,,,,,,,,,,,,,,,,,,,,,,,,,,,,,,,,,,,,,132.8032,134.6703,[],[],[],[],[],[],139.806,140.3526,,,-0.135813124,-0.081933662,1,0,0,0.5449,140.3526,141.153,,,-0.236864556,-0.027259894,1,0,0,0.7991,141.153,141.7873,,,-0.255594754,0.007512478,1,0,0,0.6331,141.7873,142.338,,,-0.255594754,0.041816949,1,0,0,0.5489,,,,,,99,1,6,3,6,,,,,,,,,0.054529652,-0.107019836,-0.111924023,-0.237443179,-0.22722588,-0.287639472,-0.348934739,-0.313003371,138.1366,139.8057,[],[],[],[],[],[],0.008731639,-0.028506284,-0.260778689,-0.030012086,-0.366404266,0.010769408,-0.462599666,0.075684286,0,4,4,5,1,,,,,,,,,,,,,
,,,,,,,,,2024-03-13_19h48.15.002,circleBounceNew,2023.2.3,MacIntel,59.52380952,,,,,,,,,,,,,,,,,,,,,,,,,,,,,,,,,,,,,,,,,,,,,,,,,,,,,,,,,,,,,,,,,,,,,,,,,,,,,,,,,,,,,,142.339,144.2027,[],[],[],[],[],[],148.7572,149.5361,,,-0.019621921,-0.001563314,1,0,0,0.77,149.5361,150.3363,,,0.037127414,-0.155417752,1,0,0,0.797,150.3363,150.887,,,0.037127414,-0.180636122,1,0,0,0.5495,150.8871,151.4688,,,0.037127414,-0.205630629,1,0,0,0.5801,,,,,,99,0,5,3,15,,,,,,,,,-0.025210705,-0.030955553,-0.178083136,0.192853952,-0.226882641,0.287910287,-0.272980161,0.381062192,146.253,148.7568,[],[],[],[],[],[],-0.010926492,-0.010849783,0.060991884,-0.255315961,0.07379945,-0.359056691,0.083287952,-0.461291318,0,5,5,2,1,,,,,,,,,,,,,
,,,,,,,,,2024-03-13_19h48.15.002,circleBounceNew,2023.2.3,MacIntel,59.52380952,,,,,,,,,,,,,,,,,,,,,,,,,,,,,,,,,,,,,,,,,,,,,,,,,,,,,,,,,,,,,,,,,,,,,,,,,,,,,,,,,,,,,,151.4692,153.3364,[],[],[],[],[],[],157.2718,157.8702,,,-0.008486532,-0.064707574,1,0,0,0.5972,157.8702,158.5694,,,0.076025662,0.135009155,1,0,0,0.6978,158.5695,158.9693,,,0.094784207,0.139510498,1,0,0,0.3982,158.9694,159.353,,,0.118634372,0.139510498,1,0,0,0.3824,,,,,,99,0,1,4,6,,,,,,,,,-0.013562506,0.000993229,-0.062523579,-0.254945194,-0.128324434,-0.343367014,-0.228017698,-0.409554016,155.6025,157.2718,[],[],[],[],[],[],-0.007204583,0.000241202,0.128800395,0.22872846,0.205998501,0.30320403,0.303660157,0.357095325,1,0,6,3,1,,,,,,,,,,,,,
,,,,,,,,,2024-03-13_19h48.15.002,circleBounceNew,2023.2.3,MacIntel,59.52380952,,,,,,,,,,,,,,,,,,,,,,,,,,,,,,,,,,,,,,,,,,,,,,,,,,,,,,,,,,,,,,,,,,,,,,,,,,,,,,,,,,,,,,159.3534,161.219,[],[],[],[],[],[],165.5043,166.419,,,-0.054059923,-0.014432441,1,0,0,0.9134,166.419,167.0705,,,-0.121728787,0.200804782,1,0,0,0.6503,167.0706,167.5192,,,-0.119983792,0.23839208,1,0,0,0.4473,167.5195,167.9352,,,-0.108781874,0.271133915,1,0,0,0.4143,,,,,,3,0,2,3,6,,,,,,,,,0.025063791,0.043560314,0.141322147,-0.221210987,0.112945245,-0.348728316,0.065502923,-0.464150762,163.8366,165.5041,[],[],[],[],[],[],-0.019550532,-0.032157905,-0.136077843,0.2244751,-0.164796739,0.327429536,-0.174543405,0.435041564,1,1,7,1,1,,,,,,,,,,,,,
,,,,,,,,,2024-03-13_19h48.15.002,circleBounceNew,2023.2.3,MacIntel,59.52380952,,,,,,,,,,,,,,,,,,,,,,,,,,,,,,,,,,,,,,,,,,,,,,,,,,,,,,,,,,,,,,,,,,,,,,,,,,,,,,,,,,,,,,167.9355,170.0722,[],[],[],[],[],[],174.1559,174.7364,,,-0.018526679,-0.047237956,1,0,0,0.5792,174.7364,175.2704,,,-0.094381443,-0.150489773,1,0,0,0.5315,175.2704,175.7187,,,-0.185665419,-0.188093262,1,0,0,0.4471,175.7187,176.1537,,,-0.26633372,-0.189722697,1,0,0,0.4333,,,,,,99,0,4,3,6,,,,,,,,,-0.008819271,0.00152969,0.168183664,0.201545293,0.286871164,0.228195095,0.436058621,0.171986749,172.4874,174.1559,[],[],[],[],[],[],-0.007677521,0.001586095,-0.139470266,-0.222383216,-0.257509706,-0.260877016,-0.381786879,-0.271965699,1,2,8,0,1,,,,,,,,,,,,,
,,,,,,,,,2024-03-13_19h48.15.002,circleBounceNew,2023.2.3,MacIntel,59.52380952,,,,,,,,,,,,,,,,,,,,,,,,,,,,,,,,,,,,,,,,,,,,,,,,,,,,,,,,,,,,,,,,,,,,,,,,,,,,,,,,,,,,,,176.1541,178.019,[],[],[],[],[],[],181.8485,182.4529,,,0.002297974,0.006290351,1,0,0,0.6033,182.453,183.2526,,,0.055605469,-0.081998834,1,0,0,0.7978,183.2527,183.905,,,0.055605469,-0.119517551,1,0,0,0.6509,183.9052,184.6191,,,0.041625298,-0.187458089,1,0,0,0.7125,,,,,,99,0,5,3,15,,,,,,,,,-0.016962849,-0.019735141,-0.141072974,0.221369975,-0.166565143,0.326533489,-0.160362711,0.440466075,179.7694,181.8484,[],[],[],[],[],[],0.004219703,0.004549873,0.147327723,-0.217257433,0.154627051,-0.332353038,0.101611584,-0.457604249,1,3,9,2,1,,,,,,,,,,,,,
,,,,,,,,,2024-03-13_19h48.15.002,circleBounceNew,2023.2.3,MacIntel,59.52380952,,,,,,,,,,,,,,,,,,,,,,,,,,,,,,,,,,,,,,,,,,,,,,,,,,,,,,,,,,,,,,,,,,,,,,,,,,,,,,,,,,,,,,184.6204,186.4862,[],[],[],[],[],[],190.4059,191.3196,,,-0.121439345,0.019655423,1,0,0,0.9123,191.3197,192.1528,,,-0.157845798,0.143905233,1,0,0,0.831,192.1529,192.7017,,,-0.160916748,0.190863376,1,0,0,0.5474,192.7017,193.1352,,,-0.160578613,0.222994181,1,0,0,0.4316,,,,,,99,1,6,3,6,,,,,,,,,0.080326538,-0.13348937,-0.05019504,-0.257656182,-0.154302553,-0.332503817,-0.288818793,-0.369202204,188.6198,190.4057,[],[],[],[],[],[],-0.005865117,0.032812002,-0.19398386,0.176851667,-0.236278937,0.280250478,-0.273918457,0.380388277,1,4,10,5,1,,,,,,,,,,,,,
,,,,,,,,,2024-03-13_19h48.15.002,circleBounceNew,2023.2.3,MacIntel,59.52380952,,,,,,,,,,,,,,,,,,,,,,,,,,,,,,,,,,,,,,,,,,,,,,,,,,,,,,,,,,,,,,,,,,,,,,,,,,,,,,,,,,,,,,193.1362,195.0018,[],[],[],[],[],[],198.9233,199.6015,,,0.023990207,-0.065327759,1,0,0,0.6768,199.6015,200.5015,,,0.104856839,0.159983419,1,0,0,0.898,200.5015,201.0347,,,0.120661892,0.167675646,1,0,0,0.5298,201.0349,201.5018,,,0.136101006,0.167675646,1,0,0,0.4654,,,,,,99,0,1,2,6,,,,,,,,,0.011337945,-0.000290232,-0.0585072,-0.255896771,-0.133911871,-0.341226724,-0.226777484,-0.410242045,197.2523,198.9231,[],[],[],[],[],[],0.035306833,-0.004076392,0.143895408,0.219545807,0.214108733,0.29753238,0.295413159,0.363947288,1,5,11,4,1,,,,,,,,,,,,,
,,,,,,,,,2024-03-13_19h48.15.002,circleBounceNew,2023.2.3,MacIntel,59.52380952,,,,,,,,,,,,,,,,,,,,,,,,,,,,,,,,,,,,,,,,,,,,,,,,,,,,,,,,,,,,,,,,,,,,,,,,,,,,,,,,,,,,,,201.5022,203.3701,[],[],[],[],[],[],207.3386,207.8847,,,-0.033285455,-0.084194675,1,0,0,0.545,207.8847,208.7723,,,0.06823249,0.106671075,1,0,0,0.8864,208.7723,209.3689,,,0.084063043,0.107736206,1,0,0,0.5957,209.369,209.8349,,,0.107248196,0.107736206,1,0,0,0.464,,,,,,99,0,1,2,6,,,,,,,,,0.018158378,-0.000228817,-0.091242012,-0.246132374,-0.192363876,-0.312032379,-0.311403835,-0.350362975,205.6681,207.3385,[],[],[],[],[],[],-0.042994899,-0.001498515,0.14144718,0.221131059,0.225495626,0.288997905,0.330703053,0.332207846,2,0,12,4,1,,,,,,,,,,,,,
,,,,,,,,,2024-03-13_19h48.15.002,circleBounceNew,2023.2.3,MacIntel,59.52380952,,,,,,,,,,,,,,,,,,,,,,,,,,,,,,,,,,,,,,,,,,,,,,,,,,,,,,,,,,,,,,,,,,,,,,,,,,,,,,,,,,,,,,209.8351,211.7368,[],[],[],[],[],[],215.3394,215.9199,,,0.028443061,-0.004940932,1,0,0,0.5793,215.92,216.4197,,,-0.074131877,-0.159693875,1,0,0,0.4985,216.4197,216.9196,,,-0.164947917,-0.225424194,1,0,0,0.4979,216.9197,217.4179,,,-0.257413669,-0.243243951,1,0,0,0.4962,,,,,,99,0,4,3,6,,,,,,,,,-0.014974983,0.002415024,0.162763538,0.205947276,0.288057776,0.226695356,0.41862235,0.210907304,213.6707,215.3393,[],[],[],[],[],[],0.028529974,-0.003843997,-0.110527357,-0.238096521,-0.216461712,-0.295824937,-0.340700825,-0.321946441,2,1,13,0,1,,,,,,,,,,,,,
,,,,,,,,,2024-03-13_19h48.15.002,circleBounceNew,2023.2.3,MacIntel,59.52380952,,,,,,,,,,,,,,,,,,,,,,,,,,,,,,,,,,,,,,,,,,,,,,,,,,,,,,,,,,,,,,,,,,,,,,,,,,,,,,,,,,,,,,217.4183,219.285,[],[],[],[],[],[],224.6713,225.1687,,,-0.132068007,-0.07928304,1,0,0,0.4963,225.1687,225.9353,,,-0.183418783,0.023612773,1,0,0,0.7643,225.9354,226.5016,,,-0.194111192,0.054755961,1,0,0,0.5649,226.5016,227.019,,,-0.194111192,0.105168186,1,0,0,0.516,,,,,,99,1,6,3,6,,,,,,,,,0.004169832,-0.015056381,-0.136023675,-0.224507928,-0.267178115,-0.250965977,-0.377517402,-0.277861788,223.0019,224.6712,[],[],[],[],[],[],0.008470395,-0.027796359,-0.260351437,0.033516847,-0.352794801,0.099518313,-0.412146212,0.223298146,2,2,14,5,1,,,,,,,,,,,,,
,,,,,,,,,2024-03-13_19h48.15.002,circleBounceNew,2023.2.3,MacIntel,59.52380952,,,,,,,,,,,,,,,,,,,,,,,,,,,,,,,,,,,,,,,,,,,,,,,,,,,,,,,,,,,,,,,,,,,,,,,,,,,,,,,,,,,,,,227.0194,228.8869,[],[],[],[],[],[],234.5451,236.2511,,,-0.059981011,0.064439426,1,0,0,1.705,236.2511,237.6175,,,0.150514459,-0.234547526,1,0,0,1.365,237.6176,238.2064,,,0.149371134,-0.278975355,1,0,0,0.5876,238.2065,238.7177,,,0.149371134,-0.31948839,1,0,0,0.5101,,,,,,99,0,5,3,15,,,,,,,,,-0.019755059,-0.023395638,-0.19416411,0.176653753,-0.253129398,0.265129354,-0.295629748,0.363771377,231.5582,234.545,[],[],[],[],[],[],0.005518119,0.005994207,0.141771476,-0.220923287,0.173026699,-0.323156043,0.198529345,-0.424632384,2,3,15,2,1,,,,,,,,,,,,,
,,,,,,,,,2024-03-13_19h48.15.002,circleBounceNew,2023.2.3,MacIntel,59.52380952,,,,,,,,,,,,,,,,,,,,,,,,,,,,,,,,,,,,,,,,,,,,,,,,,,,,,,,,,,,,,,,,,,,,,,,,,,,,,,,,,,,,,,238.7193,240.5842,[],[],[],[],[],[],244.9729,246.201,,,-0.00869378,-0.058321872,1,0,0,1.2268,246.201,247.084,,,0.046358982,0.143438483,1,0,0,0.8818,247.0841,247.4841,,,0.061614719,0.14919203,1,0,0,0.3987,247.4842,247.8844,,,0.091756456,0.14919203,1,0,0,0.3983,,,,,,99,0,1,4,6,,,,,,,,,0.007884581,-0.000253742,-0.066404738,-0.253961928,-0.136715109,-0.340113283,-0.239356607,-0.403032228,243.3013,244.9727,[],[],[],[],[],[],-0.007633456,0.000249316,0.080727808,0.249778444,0.139923289,0.33880605,0.245565791,0.399279357,2,4,16,3,1,,,,,,,,,,,,,
,,,,,,,,,2024-03-13_19h48.15.002,circleBounceNew,2023.2.3,MacIntel,59.52380952,,,,,,,,,,,,,,,,,,,,,,,,,,,,,,,,,,,,,,,,,,,,,,,,,,,,,,,,,,,,,,,,,,,,,,,,,,,,,,,,,,,,,,247.8846,249.8509,[],[],[],[],[],[],253.9376,254.6676,,,0.002671305,-0.027964545,1,0,0,0.7285,254.6676,255.5354,,,-0.132319607,0.169404229,1,0,0,0.8664,255.5355,256.0512,,,-0.126222263,0.227319709,1,0,0,0.5143,256.0515,256.4851,,,-0.116408759,0.269523536,1,0,0,0.4312,,,,,,3,0,2,3,6,,,,,,,,,0.009436091,0.014232352,0.123157351,-0.231815696,0.143776949,-0.337188753,0.155427053,-0.442231833,252.2678,253.9375,[],[],[],[],[],[],-0.012380451,-0.019121435,-0.161585747,0.206872658,-0.177946881,0.320473047,-0.185861135,0.430328015,2,5,17,1,1,,,,,,,,,,,,,
,,,,,,,,,2024-03-13_19h48.15.002,circleBounceNew,2023.2.3,MacIntel,59.52380952,,,,,,,,,,,,,,,,,,,,,,,,,,,,,,,,,,,,,,,,,,,,,,,,,,,,,,,,,,,,,,,,,,,,,,,,,,,,,,,,,,,,,,256.4854,258.3508,[],[],[],[],[],[],262.3883,263.169,,,0.019224175,0.004738702,1,0,0,0.7791,263.169,263.8184,,,0.092222968,0.159681023,1,0,0,0.6478,263.8185,268.9017,,,0.105880941,0.168826972,1,0,0,5.0813,268.9018,269.5672,,,0.121205512,0.175216607,1,0,0,0.6553,,,,,,99,0,1,2,6,,,,,,,,,-0.002151329,0.000110462,-0.070916777,-0.252739116,-0.12133954,-0.345897069,-0.195740253,-0.425925247,260.7172,262.3881,[],[],[],[],[],[],0.018482047,-0.001528778,0.131283188,0.227312504,0.194759086,0.310543016,0.266670967,0.385503771,3,0,18,4,1,,,,,,,,,,,,,
,,,,,,,,,2024-03-13_19h48.15.002,circleBounceNew,2023.2.3,MacIntel,59.52380952,,,,,,,,,,,,,,,,,,,,,,,,,,,,,,,,,,,,,,,,,,,,,,,,,,,,,,,,,,,,,,,,,,,,,,,,,,,,,,,,,,,,,,269.568,271.4367,[],[],[],[],[],[],277.399,279.6848,,,-0.0196757,-0.147362874,1,0,0,2.28,279.6849,280.7341,,,0.034361504,0.158040195,1,0,0,1.0476,280.7341,281.2184,,,0.064658271,0.176305101,1,0,0,0.4828,281.2185,281.5844,,,0.095760498,0.1802771,1,0,0,0.3649,,,,,,99,0,1,4,6,,,,,,,,,0.019401381,-0.000198525,-0.009643817,-0.262322791,-0.039810684,-0.364394259,-0.082431162,-0.461445193,275.1854,277.3989,[],[],[],[],[],[],-0.029016133,-0.000235073,0.055770438,0.256507131,0.126213329,0.344148605,0.219895539,0.413971635,3,1,19,3,1,,,,,,,,,,,,,
,,,,,,,,,2024-03-13_19h48.15.002,circleBounceNew,2023.2.3,MacIntel,59.52380952,,,,,,,,,,,,,,,,,,,,,,,,,,,,,,,,,,,,,,,,,,,,,,,,,,,,,,,,,,,,,,,,,,,,,,,,,,,,,,,,,,,,,,281.5851,283.4508,[],[],[],[],[],[],331.9352,332.5005,,,0.042237549,0.010059781,1,0,0,0.5642,332.5005,333.1333,,,-0.090691461,0.145721605,1,0,0,0.6318,333.1334,333.533,,,-0.090691461,0.165611911,1,0,0,0.3986,333.5331,333.9378,,,-0.08611735,0.184321967,1,0,0,0.4035,,,,,,3,0,2,3,6,,,,,,,,,-0.007666397,-0.01024597,0.196656928,-0.173874387,0.274617354,-0.242803162,0.351173086,-0.310489977,330.268,331.9351,[],[],[],[],[],[],0.02309716,0.028134699,-0.138701559,0.222863473,-0.176064169,0.321511236,-0.19841756,0.424684629,3,2,20,1,1,,,,,,,,,,,,,
,,,,,,,,,2024-03-13_19h48.15.002,circleBounceNew,2023.2.3,MacIntel,59.52380952,,,,,,,,,,,,,,,,,,,,,,,,,,,,,,,,,,,,,,,,,,,,,,,,,,,,,,,,,,,,,,,,,,,,,,,,,,,,,,,,,,,,,,333.9383,335.7996,[],[],[],[],[],[],339.3711,339.9669,,,0.011710815,-0.007603692,1,0,0,0.5944,339.9669,340.4504,,,-0.050408664,-0.123088786,1,0,0,0.4823,340.4505,340.8497,,,-0.134899902,-0.175440267,1,0,0,0.3976,340.8499,341.2998,,,-0.213540853,-0.194202677,1,0,0,0.4489,,,,,,99,0,4,3,6,,,,,,,,,-0.02504641,0.003544627,0.130832562,0.227572166,0.218823673,0.294082075,0.316952077,0.345351912,337.4843,339.3709,[],[],[],[],[],[],0.012492848,-0.00207594,-0.099482679,-0.242918601,-0.223440749,-0.29058957,-0.346786579,-0.315381723,3,3,21,0,1,,,,,,,,,,,,,
,,,,,,,,,2024-03-13_19h48.15.002,circleBounceNew,2023.2.3,MacIntel,59.52380952,,,,,,,,,,,,,,,,,,,,,,,,,,,,,,,,,,,,,,,,,,,,,,,,,,,,,,,,,,,,,,,,,,,,,,,,,,,,,,,,,,,,,,341.3002,343.1831,[],[],[],[],[],[],347.3544,348.0057,,,-0.035633952,0.047899611,1,0,0,0.6503,348.0058,348.9366,,,0.074194336,-0.124200575,1,0,0,0.9297,348.9366,349.4827,,,0.074194336,-0.158087769,1,0,0,0.5453,349.4828,350.1849,,,0.058918525,-0.201998901,1,0,0,0.701,,,,,,99,0,5,3,15,,,,,,,,,-0.049615007,-0.074340335,-0.123721949,0.231514858,-0.107520467,0.35043889,-0.065783713,0.464111049,344.9839,347.3543,[],[],[],[],[],[],0.008798506,0.009741472,0.134619944,-0.225352437,0.155737603,-0.331834093,0.131254473,-0.449998695,3,4,22,2,1,,,,,,,,,,,,,
,,,,,,,,,2024-03-13_19h48.15.002,circleBounceNew,2023.2.3,MacIntel,59.52380952,,,,,,,,,,,,,,,,,,,,,,,,,,,,,,,,,,,,,,,,,,,,,,,,,,,,,,,,,,,,,,,,,,,,,,,,,,,,,,,,,,,,,,350.1851,352.05,[],[],[],[],[],[],355.885,356.6178,,,-0.113748576,-0.02875139,1,0,0,0.7316,356.6179,357.6504,,,-0.145481703,0.212682699,1,0,0,1.0317,357.6504,358.3691,,,-0.129718018,0.268438907,1,0,0,0.7168,358.3692,359.0502,,,-0.109489475,0.299603255,1,0,0,0.6802,,,,,,99,1,6,3,6,,,,,,,,,0.076631036,-0.130133192,-0.029599159,-0.26082588,-0.188540539,-0.314357331,-0.340409674,-0.322254273,354.2178,355.885,[],[],[],[],[],[],0.000138929,-0.000564,-0.148203133,0.216661213,-0.159489149,0.330047387,-0.1608964,0.440271406,3,5,23,5,1,,,,,,,,,,,,,
,,,,,,,,,2024-03-13_19h48.15.002,circleBounceNew,2023.2.3,MacIntel,59.52380952,,,,,,,,,,,,,,,,,,,,,,,,,,,,,,,,,,,,,,,,,,,,,,,,,,,,,,,,,,,,,,,,,,,,,,,,,,,,,,,,,,,,,,359.0612,360.9174,[],[],[],[],[],[],365.1499,365.7336,,,-0.050601264,0.029316067,1,0,0,0.5827,365.7336,366.3167,,,-0.078843519,-0.097059869,1,0,0,0.582,366.3168,366.7832,,,-0.122557712,-0.151473253,1,0,0,0.4654,362.7349,363.2343,,,0.148672621,0.202834676,1,0,0,0.4984,,,,,,99,0,4,3,1,,,,,,,,,-0.012832408,0.002123753,0.143165554,0.22002244,0.208957135,0.301172678,0.27711346,0.378067048,363.2344,365.1498,[],[],[],[],[],[],-0.055851893,0.017301099,-0.165508278,-0.20374803,-0.230568308,-0.284967229,,,,,,,,0,0,0,0,1,,,,,,,,
,,,,,,,,,2024-03-13_19h48.15.002,circleBounceNew,2023.2.3,MacIntel,59.52380952,,,,,,,,,,,,,,,,,,,,,,,,,,,,,,,,,,,,,,,,,,,,,,,,,,,,,,,,,,,,,,,,,,,,,,,,,,,,,,,,,,,,,,366.7835,368.6507,[],[],[],[],[],[],373.3164,373.8836,,,0.021993815,-0.023240221,1,0,0,0.5662,373.8836,374.5159,,,-0.114428643,0.120452406,1,0,0,0.6313,374.516,374.9503,,,-0.132540283,0.166687147,1,0,0,0.4332,370.9334,371.4002,,,0.178583645,-0.079484117,1,0,0,0.466,,,,,,99,0,2,3,1,,,,,,,,,0.008192576,0.012237442,0.239843999,-0.106682267,0.335276267,-0.148181954,0.428247993,-0.190604877,371.4006,373.3162,[],[],[],[],[],[],-0.004000875,-0.005790888,-0.180795785,0.190313253,-0.228139218,0.286915604,,,,,,,,0,1,1,1,1,,,,,,,,
,,,,,,,,,2024-03-13_19h48.15.002,circleBounceNew,2023.2.3,MacIntel,59.52380952,,,,,,,,,,,,,,,,,,,,,,,,,,,,,,,,,,,,,,,,,,,,,,,,,,,,,,,,,,,,,,,,,,,,,,,,,,,,,,,,,,,,,,,,,,,,,,,,,,,,,,,,,,,,,,,,,,,,,,,,,,,,374.9503,375.5156,,,-0.147348904,0.168665059,1,0,0,0.5642,,,,,,,,,,,,,,,,,,,,,,,,,,,,,,,,,,,,,,,,,-0.308397714,0.353011915,,,,,,,,,,,,,,,,,,
,,,,,,,,,2024-03-13_19h48.15.002,circleBounceNew,2023.2.3,MacIntel,59.52380952,,,,,,,,,,,,,,,,,,,,,,,,,,,,,,,,,,,,,,,,,,,,,,,,,,,,,,,,,,,,,,,,,,,,,,,,,,,,,,,,,,,,,,,,,,,,,,,,,,,,,,,,,,,,,,,,,,,,,,,,,,,,,,,,,,,,,,,,,,,,,,,,,,,,,,,,,,,,,,,,,,,,,,,,,,,,,,,,,,,,,,,,,,375.516,381.3847,-0.147097778,0.168665059,1,0,0,5.861